"20180815402-01_DOCQuality - RawData"
"Wavelength nm.","Abs."
200.00,0.657
201.00,0.680
202.00,0.691
203.00,0.792
204.00,0.737
205.00,0.724
206.00,0.769
207.00,0.735
208.00,0.787
209.00,0.651
210.00,0.680
211.00,0.737
212.00,0.714
213.00,0.764
214.00,0.666
215.00,0.724
216.00,0.724
217.00,0.743
218.00,0.740
219.00,0.739
220.00,0.705
221.00,0.692
222.00,0.731
223.00,0.725
224.00,0.739
225.00,0.748
226.00,0.785
227.00,0.792
228.00,0.829
229.00,0.779
230.00,0.763
231.00,0.807
232.00,0.788
233.00,0.820
234.00,0.753
235.00,0.809
236.00,0.862
237.00,0.946
238.00,0.910
239.00,0.910
240.00,0.924
241.00,0.946
242.00,0.957
243.00,0.964
244.00,0.986
245.00,0.932
246.00,1.038
247.00,1.038
248.00,1.036
249.00,1.007
250.00,0.975
251.00,0.975
252.00,1.026
253.00,1.007
254.00,0.981
255.00,1.007
256.00,1.047
257.00,1.056
258.00,1.041
259.00,1.017
260.00,1.056
261.00,1.066
262.00,1.045
263.00,1.144
264.00,1.208
265.00,1.262
266.00,1.505
267.00,1.680
268.00,1.888
269.00,2.056
270.00,2.303
271.00,2.504
272.00,2.625
273.00,2.765
274.00,2.879
275.00,2.985
276.00,3.141
277.00,3.215
278.00,3.263
279.00,3.325
280.00,3.436
281.00,3.436
282.00,3.524
283.00,3.436
284.00,3.374
285.00,3.374
286.00,3.436
287.00,3.374
288.00,3.175
289.00,3.039
290.00,2.856
291.00,2.672
292.00,2.485
293.00,2.309
294.00,2.134
295.00,1.965
296.00,1.820
297.00,1.679
298.00,1.549
299.00,1.428
300.00,1.315
301.00,1.212
302.00,1.115
303.00,1.027
304.00,0.945
305.00,0.874
306.00,0.806
307.00,0.741
308.00,0.683
309.00,0.629
310.00,0.579
311.00,0.533
312.00,0.492
313.00,0.454
314.00,0.420
315.00,0.388
316.00,0.359
317.00,0.331
318.00,0.306
319.00,0.283
320.00,0.261
321.00,0.241
322.00,0.223
323.00,0.205
324.00,0.190
325.00,0.175
326.00,0.162
327.00,0.150
328.00,0.138
329.00,0.128
330.00,0.118
331.00,0.109
332.00,0.101
333.00,0.094
334.00,0.087
335.00,0.081
336.00,0.075
337.00,0.070
338.00,0.065
339.00,0.061
340.00,0.056
341.00,0.052
342.00,0.049
343.00,0.046
344.00,0.043
345.00,0.040
346.00,0.037
347.00,0.035
348.00,0.033
349.00,0.031
350.00,0.029
351.00,0.027
352.00,0.026
353.00,0.024
354.00,0.023
355.00,0.021
356.00,0.020
357.00,0.019
358.00,0.018
359.00,0.017
360.00,0.016
361.00,0.015
362.00,0.014
363.00,0.013
364.00,0.013
365.00,0.012
366.00,0.011
367.00,0.011
368.00,0.010
369.00,0.010
370.00,0.009
371.00,0.009
372.00,0.008
373.00,0.008
374.00,0.008
375.00,0.008
376.00,0.007
377.00,0.007
378.00,0.007
379.00,0.007
380.00,0.007
381.00,0.006
382.00,0.006
383.00,0.005
384.00,0.005
385.00,0.003
386.00,0.004
387.00,0.004
388.00,0.003
389.00,0.003
390.00,0.002
391.00,0.002
392.00,0.002
393.00,0.001
394.00,0.001
395.00,0.001
396.00,0.001
397.00,0.000
398.00,0.000
399.00,-0.000
400.00,-0.000
401.00,-0.000
402.00,-0.000
403.00,-0.001
404.00,-0.001
405.00,-0.001
406.00,-0.001
407.00,-0.001
408.00,-0.001
409.00,-0.001
410.00,-0.001
411.00,-0.001
412.00,-0.002
413.00,-0.002
414.00,-0.002
415.00,-0.002
416.00,-0.002
417.00,-0.002
418.00,-0.002
419.00,-0.002
420.00,-0.002
421.00,-0.002
422.00,-0.002
423.00,-0.002
424.00,-0.003
425.00,-0.003
426.00,-0.003
427.00,-0.003
428.00,-0.003
429.00,-0.003
430.00,-0.003
431.00,-0.003
432.00,-0.003
433.00,-0.003
434.00,-0.003
435.00,-0.003
436.00,-0.003
437.00,-0.003
438.00,-0.003
439.00,-0.004
440.00,-0.004
441.00,-0.004
442.00,-0.004
443.00,-0.004
444.00,-0.004
445.00,-0.004
446.00,-0.004
447.00,-0.004
448.00,-0.004
449.00,-0.004
450.00,-0.004
451.00,-0.004
452.00,-0.004
453.00,-0.005
454.00,-0.005
455.00,-0.005
456.00,-0.005
457.00,-0.005
458.00,-0.005
459.00,-0.005
460.00,-0.005
461.00,-0.005
462.00,-0.005
463.00,-0.005
464.00,-0.005
465.00,-0.005
466.00,-0.005
467.00,-0.005
468.00,-0.006
469.00,-0.006
470.00,-0.006
471.00,-0.006
472.00,-0.006
473.00,-0.006
474.00,-0.006
475.00,-0.006
476.00,-0.006
477.00,-0.006
478.00,-0.006
479.00,-0.006
480.00,-0.006
481.00,-0.006
482.00,-0.006
483.00,-0.006
484.00,-0.006
485.00,-0.007
486.00,-0.007
487.00,-0.007
488.00,-0.007
489.00,-0.007
490.00,-0.007
491.00,-0.007
492.00,-0.007
493.00,-0.007
494.00,-0.007
495.00,-0.007
496.00,-0.007
497.00,-0.007
498.00,-0.007
499.00,-0.007
500.00,-0.007
501.00,-0.007
502.00,-0.007
503.00,-0.007
504.00,-0.007
505.00,-0.007
506.00,-0.007
507.00,-0.008
508.00,-0.008
509.00,-0.008
510.00,-0.008
511.00,-0.008
512.00,-0.008
513.00,-0.008
514.00,-0.008
515.00,-0.008
516.00,-0.008
517.00,-0.008
518.00,-0.008
519.00,-0.008
520.00,-0.008
521.00,-0.008
522.00,-0.008
523.00,-0.008
524.00,-0.008
525.00,-0.008
526.00,-0.008
527.00,-0.008
528.00,-0.008
529.00,-0.008
530.00,-0.009
531.00,-0.009
532.00,-0.009
533.00,-0.009
534.00,-0.009
535.00,-0.009
536.00,-0.009
537.00,-0.009
538.00,-0.009
539.00,-0.009
540.00,-0.009
541.00,-0.009
542.00,-0.009
543.00,-0.009
544.00,-0.009
545.00,-0.009
546.00,-0.009
547.00,-0.009
548.00,-0.009
549.00,-0.009
550.00,-0.009
551.00,-0.009
552.00,-0.009
553.00,-0.009
554.00,-0.009
555.00,-0.009
556.00,-0.009
557.00,-0.009
558.00,-0.009
559.00,-0.009
560.00,-0.009
561.00,-0.009
562.00,-0.009
563.00,-0.009
564.00,-0.009
565.00,-0.009
566.00,-0.009
567.00,-0.009
568.00,-0.009
569.00,-0.009
570.00,-0.009
571.00,-0.009
572.00,-0.010
573.00,-0.009
574.00,-0.009
575.00,-0.009
576.00,-0.009
577.00,-0.009
578.00,-0.009
579.00,-0.009
580.00,-0.009
581.00,-0.009
582.00,-0.009
583.00,-0.009
584.00,-0.009
585.00,-0.009
586.00,-0.009
587.00,-0.009
588.00,-0.009
589.00,-0.009
590.00,-0.009
591.00,-0.009
592.00,-0.009
593.00,-0.009
594.00,-0.009
595.00,-0.009
596.00,-0.009
597.00,-0.009
598.00,-0.009
599.00,-0.009
600.00,-0.009
601.00,-0.009
602.00,-0.009
603.00,-0.009
604.00,-0.009
605.00,-0.009
606.00,-0.009
607.00,-0.009
608.00,-0.009
609.00,-0.009
610.00,-0.009
611.00,-0.008
612.00,-0.008
613.00,-0.008
614.00,-0.008
615.00,-0.008
616.00,-0.008
617.00,-0.008
618.00,-0.008
619.00,-0.008
620.00,-0.008
621.00,-0.008
622.00,-0.008
623.00,-0.008
624.00,-0.008
625.00,-0.008
626.00,-0.008
627.00,-0.008
628.00,-0.008
629.00,-0.008
630.00,-0.008
631.00,-0.008
632.00,-0.008
633.00,-0.008
634.00,-0.008
635.00,-0.008
636.00,-0.008
637.00,-0.008
638.00,-0.008
639.00,-0.008
640.00,-0.008
641.00,-0.008
642.00,-0.008
643.00,-0.008
644.00,-0.008
645.00,-0.008
646.00,-0.008
647.00,-0.008
648.00,-0.008
649.00,-0.008
650.00,-0.008
651.00,-0.008
652.00,-0.008
653.00,-0.008
654.00,-0.008
655.00,-0.008
656.00,-0.008
657.00,-0.008
658.00,-0.008
659.00,-0.008
660.00,-0.008
661.00,-0.008
662.00,-0.008
663.00,-0.008
664.00,-0.008
665.00,-0.008
666.00,-0.008
667.00,-0.008
668.00,-0.008
669.00,-0.008
670.00,-0.008
671.00,-0.007
672.00,-0.008
673.00,-0.008
674.00,-0.007
675.00,-0.007
676.00,-0.008
677.00,-0.007
678.00,-0.007
679.00,-0.007
680.00,-0.007
681.00,-0.007
682.00,-0.007
683.00,-0.007
684.00,-0.007
685.00,-0.007
686.00,-0.007
687.00,-0.007
688.00,-0.007
689.00,-0.007
690.00,-0.007
691.00,-0.007
692.00,-0.007
693.00,-0.007
694.00,-0.007
695.00,-0.007
696.00,-0.007
697.00,-0.007
698.00,-0.007
699.00,-0.007
700.00,-0.007
701.00,-0.007
702.00,-0.006
703.00,-0.006
704.00,-0.006
705.00,-0.006
706.00,-0.006
707.00,-0.006
708.00,-0.006
709.00,-0.006
710.00,-0.006
711.00,-0.006
712.00,-0.005
713.00,-0.005
714.00,-0.005
715.00,-0.005
716.00,-0.005
717.00,-0.005
718.00,-0.005
719.00,-0.004
720.00,-0.004
721.00,-0.004
722.00,-0.004
723.00,-0.003
724.00,-0.003
725.00,-0.003
726.00,-0.003
727.00,-0.002
728.00,-0.002
729.00,-0.001
730.00,-0.001
731.00,-0.001
732.00,-0.000
733.00,0.000
734.00,0.001
735.00,0.001
736.00,0.002
737.00,0.002
738.00,0.002
739.00,0.002
740.00,0.002
741.00,0.003
742.00,0.003
743.00,0.003
744.00,0.003
745.00,0.003
746.00,0.003
747.00,0.003
748.00,0.003
749.00,0.003
750.00,0.003
751.00,0.003
752.00,0.003
753.00,0.003
754.00,0.003
755.00,0.003
756.00,0.003
757.00,0.003
758.00,0.003
759.00,0.003
760.00,0.003
761.00,0.003
762.00,0.003
763.00,0.003
764.00,0.003
765.00,0.003
766.00,0.003
767.00,0.003
768.00,0.003
769.00,0.003
770.00,0.003
771.00,0.003
772.00,0.003
773.00,0.003
774.00,0.003
775.00,0.003
776.00,0.003
777.00,0.003
778.00,0.003
779.00,0.003
780.00,0.003
781.00,0.003
782.00,0.003
783.00,0.003
784.00,0.003
785.00,0.003
786.00,0.003
787.00,0.002
788.00,0.002
789.00,0.002
790.00,0.002
791.00,0.002
792.00,0.002
793.00,0.002
794.00,0.002
795.00,0.002
796.00,0.002
797.00,0.002
798.00,0.002
799.00,0.001
800.00,0.001
